{
    "type": "transaction",
    "entry": [
        {
            "fullUrl": "urn:uuid:ce4399b0-2a1d-4af1-865d-8750f584c832",
            "request": {
                "url": "Encounter",
                "method": "POST"
            },
            "resource": {
                "class": {
                    "code": "AMB",
                    "system": "http:\/\/terminology.hl7.org\/CodeSystem\/v3-ActCode",
                    "display": "ambulatory"
                },
                "period": {
                    "end": "2026-02-21T18:49:25+00:00",
                    "start": "2026-02-21T18:19:25+00:00"
                },
                "status": "finished",
                "subject": {
                    "display": "Galih Prasasta",
                    "reference": "Patient\/P02478375538"
                },
                "location": [
                    {
                        "location": {
                            "display": "Poli Umum",
                            "reference": "Location\/43852f41-a0b2-46fd-9eea-5c1cf34715ce"
                        }
                    }
                ],
                "diagnosis": [
                    {
                        "use": {
                            "coding": [
                                {
                                    "code": "DD",
                                    "system": "http:\/\/terminology.hl7.org\/CodeSystem\/diagnosis-role",
                                    "display": "Discharge diagnosis"
                                }
                            ]
                        },
                        "rank": 1,
                        "condition": {
                            "display": "Adenoviral encephalitis",
                            "reference": "urn:uuid:9af1f6bb-44d0-4b17-9ddc-f0a26ea4c7cb"
                        }
                    },
                    {
                        "use": {
                            "coding": [
                                {
                                    "code": "DD",
                                    "system": "http:\/\/terminology.hl7.org\/CodeSystem\/diagnosis-role",
                                    "display": "Discharge diagnosis"
                                }
                            ]
                        },
                        "rank": 2,
                        "condition": {
                            "display": "Tuberculosis of adrenal glands",
                            "reference": "urn:uuid:4fb0dc4e-8767-4827-a05b-d06d6347e7d6"
                        }
                    }
                ],
                "identifier": [
                    {
                        "value": "ENC-2",
                        "system": "http:\/\/sys-ids.kemkes.go.id\/encounter\/857d024c-04c1-4672-a7b0-1fb1e11ddc1e"
                    }
                ],
                "participant": [
                    {
                        "individual": {
                            "display": "Dr. Admin Klinik"
                        }
                    }
                ],
                "resourceType": "Encounter",
                "statusHistory": [
                    {
                        "period": {
                            "end": "2026-02-21T18:24:25+00:00",
                            "start": "2026-02-21T18:19:25+00:00"
                        },
                        "status": "arrived"
                    },
                    {
                        "period": {
                            "end": "2026-02-21T18:39:25+00:00",
                            "start": "2026-02-21T18:24:25+00:00"
                        },
                        "status": "in-progress"
                    },
                    {
                        "period": {
                            "end": "2026-02-21T18:49:25+00:00",
                            "start": "2026-02-21T18:39:25+00:00"
                        },
                        "status": "finished"
                    }
                ],
                "serviceProvider": {
                    "reference": "Organization\/857d024c-04c1-4672-a7b0-1fb1e11ddc1e"
                }
            }
        },
        {
            "fullUrl": "urn:uuid:9af1f6bb-44d0-4b17-9ddc-f0a26ea4c7cb",
            "request": {
                "url": "Condition",
                "method": "POST"
            },
            "resource": {
                "code": {
                    "coding": [
                        {
                            "code": "A85.1",
                            "system": "http:\/\/hl7.org\/fhir\/sid\/icd-10",
                            "display": "Adenoviral encephalitis"
                        }
                    ]
                },
                "subject": {
                    "reference": "Patient\/P02478375538"
                },
                "category": [
                    {
                        "coding": [
                            {
                                "code": "encounter-diagnosis",
                                "system": "http:\/\/terminology.hl7.org\/CodeSystem\/condition-category",
                                "display": "Encounter Diagnosis"
                            }
                        ]
                    }
                ],
                "encounter": {
                    "reference": "urn:uuid:ce4399b0-2a1d-4af1-865d-8750f584c832"
                },
                "resourceType": "Condition",
                "clinicalStatus": {
                    "coding": [
                        {
                            "code": "active",
                            "system": "http:\/\/terminology.hl7.org\/CodeSystem\/condition-clinical",
                            "display": "Active"
                        }
                    ]
                }
            }
        },
        {
            "fullUrl": "urn:uuid:4fb0dc4e-8767-4827-a05b-d06d6347e7d6",
            "request": {
                "url": "Condition",
                "method": "POST"
            },
            "resource": {
                "code": {
                    "coding": [
                        {
                            "code": "A18.7",
                            "system": "http:\/\/hl7.org\/fhir\/sid\/icd-10",
                            "display": "Tuberculosis of adrenal glands"
                        }
                    ]
                },
                "subject": {
                    "reference": "Patient\/P02478375538"
                },
                "category": [
                    {
                        "coding": [
                            {
                                "code": "encounter-diagnosis",
                                "system": "http:\/\/terminology.hl7.org\/CodeSystem\/condition-category",
                                "display": "Encounter Diagnosis"
                            }
                        ]
                    }
                ],
                "encounter": {
                    "reference": "urn:uuid:ce4399b0-2a1d-4af1-865d-8750f584c832"
                },
                "resourceType": "Condition",
                "clinicalStatus": {
                    "coding": [
                        {
                            "code": "active",
                            "system": "http:\/\/terminology.hl7.org\/CodeSystem\/condition-clinical",
                            "display": "Active"
                        }
                    ]
                }
            }
        }
    ],
    "resourceType": "Bundle"
}